//recoil spectrum for detector XENON
//Er(keV)   	rate(/keV/kg/day)
1.000000 	2.632520E+00
2.000000 	2.409491E+00
3.000000 	2.204788E+00
4.000000 	2.016945E+00
5.000000 	1.844610E+00
6.000000 	1.686539E+00
7.000000 	1.541584E+00
8.000000 	1.408686E+00
9.000000 	1.286872E+00
10.000000 	1.175243E+00
11.000000 	1.072973E+00
12.000000 	9.792996E-01
13.000000 	8.935228E-01
14.000000 	8.149968E-01
15.000000 	7.431274E-01
16.000000 	6.773681E-01
17.000000 	6.172157E-01
18.000000 	5.622075E-01
19.000000 	5.119179E-01
20.000000 	4.659555E-01
21.000000 	4.239603E-01
22.000000 	3.856017E-01
23.000000 	3.505755E-01
24.000000 	3.186024E-01
25.000000 	2.894256E-01
26.000000 	2.628094E-01
27.000000 	2.385374E-01
28.000000 	2.164106E-01
29.000000 	1.962468E-01
30.000000 	1.778783E-01
31.000000 	1.611516E-01
32.000000 	1.459258E-01
33.000000 	1.320715E-01
34.000000 	1.194703E-01
35.000000 	1.080135E-01
36.000000 	9.760160E-02
37.000000 	8.814341E-02
38.000000 	7.955537E-02
39.000000 	7.176098E-02
40.000000 	6.469021E-02
41.000000 	5.827897E-02
42.000000 	5.246864E-02
43.000000 	4.720556E-02
44.000000 	4.244070E-02
45.000000 	3.812923E-02
46.000000 	3.423019E-02
47.000000 	3.070613E-02
48.000000 	2.752289E-02
49.000000 	2.464927E-02
50.000000 	2.205677E-02
51.000000 	1.971944E-02
52.000000 	1.761357E-02
53.000000 	1.571757E-02
54.000000 	1.401174E-02
55.000000 	1.247818E-02
56.000000 	1.110054E-02
57.000000 	9.863971E-03
58.000000 	8.754953E-03
59.000000 	7.761191E-03
60.000000 	6.871511E-03
61.000000 	6.075760E-03
62.000000 	5.364716E-03
63.000000 	4.730011E-03
64.000000 	4.164052E-03
65.000000 	3.659955E-03
66.000000 	3.211480E-03
67.000000 	2.812978E-03
68.000000 	2.459331E-03
69.000000 	2.145914E-03
70.000000 	1.868542E-03
71.000000 	1.623436E-03
72.000000 	1.407181E-03
73.000000 	1.216700E-03
74.000000 	1.049215E-03
75.000000 	9.022246E-04
76.000000 	7.734779E-04
77.000000 	6.609489E-04
78.000000 	5.628174E-04
79.000000 	4.774489E-04
80.000000 	4.033771E-04
81.000000 	3.392881E-04
82.000000 	2.840054E-04
83.000000 	2.364769E-04
84.000000 	1.957629E-04
85.000000 	1.610248E-04
86.000000 	1.315155E-04
87.000000 	1.065701E-04
88.000000 	8.559767E-05
89.000000 	6.807397E-05
90.000000 	5.353454E-05
91.000000 	4.156862E-05
92.000000 	3.181361E-05
93.000000 	2.395004E-05
94.000000 	1.769703E-05
95.000000 	1.280819E-05
96.000000 	9.067920E-06
97.000000 	6.288047E-06
98.000000 	4.304835E-06
99.000000 	2.976254E-06
100.000000 	2.179540E-06
